RetDur,BotBrack,StimDur,UpBrack,ProbeDurITI,ProbeDur,ProbeStart,TrialDur,ITI,StimSet,RetStart,ProbeLet,TrialITIDur,Correct,trials.thisRepN,trials.thisTrialN,trials.thisN,trials.thisIndex,ScannerTrigger.keys,ScannerTrigger.rt,TrialStartTime,KeyboardResp.keys,KeyboardResp.corr,KeyboardResp.rt,Participant ID,date,expName,Visit ID,frameRate,
,,,,,,,,,,,,,,0,-1,-1,0,r,7.30846595764,,,,,1,2016_Jan_25_1322,PartialTrial,9999,59.819755062,
,,,,,,,,,,,,,,0,-1,-1,0,,,1453746181.79,,,,1,2016_Jan_25_1322,PartialTrial,9999,59.819755062,
0,1,2,2,6.92,2,2,4,4.92,KTJDRY,2,tbnmqx,8.92,down,0,0,0,0,,,1453746186.8,down,1,0.834275007248,1,2016_Jan_25_1322,PartialTrial,9999,59.819755062,
0,1,2,2,6.92,2,2,4,4.92,KTJDRY,2,tbnmqx,8.92,down,0,0,0,0,,,,,,,1,2016_Jan_25_1322,PartialTrial,9999,59.819755062,
0,0,2,2,4.245,0,2,2,4.245,NDGJXB,2, ,6.245,none,0,1,1,1,,,1453746198.22,None,10,,1,2016_Jan_25_1322,PartialTrial,9999,59.819755062,
0,0,2,2,4.245,0,2,2,4.245,NDGJXB,2, ,6.245,none,0,1,1,1,,,,,,,1,2016_Jan_25_1322,PartialTrial,9999,59.819755062,
5,6,2,3,6.051,2,7,9,4.051,NWQMYF,2,jhbrxg,13.051,right,0,2,2,2,,,1453746206.96,right,1,1.53438901901,1,2016_Jan_25_1322,PartialTrial,9999,59.819755062,
5,6,2,3,6.051,2,7,9,4.051,NWQMYF,2,jhbrxg,13.051,right,0,2,2,2,,,,,,,1,2016_Jan_25_1322,PartialTrial,9999,59.819755062,
5,6,2,3,6.353,2,7,9,4.353,JNDLBY,2,tfmqgd,13.353,down,0,3,3,3,,,1453746222.5,down,1,1.01874804497,1,2016_Jan_25_1322,PartialTrial,9999,59.819755062,
5,6,2,3,6.353,2,7,9,4.353,JNDLBY,2,tfmqgd,13.353,down,0,3,3,3,,,,,,,1,2016_Jan_25_1322,PartialTrial,9999,59.819755062,
5,0,2,5,4.729,0,7,7,4.729,JXKMYH,2, ,11.729,none,0,4,4,4,,,1453746238.36,None,10,,1,2016_Jan_25_1322,PartialTrial,9999,59.819755062,
5,0,2,5,4.729,0,7,7,4.729,JXKMYH,2, ,11.729,none,0,4,4,4,,,,,,,1,2016_Jan_25_1322,PartialTrial,9999,59.819755062,
5,6,2,12,6.017,2,7,9,4.017,KNTYRB,2,jfgldw,13.017,right,0,5,5,5,,,1453746252.58,right,1,1.03379487991,1,2016_Jan_25_1322,PartialTrial,9999,59.819755062,
5,6,2,12,6.017,2,7,9,4.017,KNTYRB,2,jfgldw,13.017,right,0,5,5,5,,,,,,,1,2016_Jan_25_1322,PartialTrial,9999,59.819755062,
5,4,2,34,6.486,2,7,9,4.486,HQDTGF,2,lbwnrx,13.486,right,0,6,6,6,,,1453746268.09,right,1,1.05047178268,1,2016_Jan_25_1322,PartialTrial,9999,59.819755062,
5,4,2,34,6.486,2,7,9,4.486,HQDTGF,2,lbwnrx,13.486,right,0,6,6,6,,,,,,,1,2016_Jan_25_1322,PartialTrial,9999,59.819755062,
5,0,2,34,4.247,0,7,7,4.247,KBTDYW,2, ,11.247,none,0,7,7,7,,,1453746284.08,None,10,,1,2016_Jan_25_1322,PartialTrial,9999,59.819755062,
5,0,2,34,4.247,0,7,7,4.247,KBTDYW,2, ,11.247,none,0,7,7,7,,,,,,,1,2016_Jan_25_1322,PartialTrial,9999,59.819755062,
0,1,2,45,6.058,2,2,4,4.058,FMKRHT,2,ldynqj,8.058,right,0,8,8,8,,,1453746297.82,right,1,0.967221975327,1,2016_Jan_25_1322,PartialTrial,9999,59.819755062,
0,1,2,45,6.058,2,2,4,4.058,FMKRHT,2,ldynqj,8.058,right,0,8,8,8,,,,,,,1,2016_Jan_25_1322,PartialTrial,9999,59.819755062,
0,0,2,56,4.025,0,2,2,4.025,HTXMJR,2, ,6.025,none,0,9,9,9,,,1453746308.38,None,10,,1,2016_Jan_25_1322,PartialTrial,9999,59.819755062,
0,0,2,56,4.025,0,2,2,4.025,HTXMJR,2, ,6.025,none,0,9,9,9,,,,,,,1,2016_Jan_25_1322,PartialTrial,9999,59.819755062,
0,0,2,123,4.002,0,2,2,4.002,YBDHMX,2, ,6.002,none,0,10,10,10,,,1453746316.9,None,10,,1,2016_Jan_25_1322,PartialTrial,9999,59.819755062,
0,0,2,123,4.002,0,2,2,4.002,YBDHMX,2, ,6.002,none,0,10,10,10,,,,,,,1,2016_Jan_25_1322,PartialTrial,9999,59.819755062,
5,2,2,234,6.007,2,7,9,4.007,QXTJMN,2,bfylkh,13.007,right,0,11,11,11,,,1453746325.4,right,1,0.90198302269,1,2016_Jan_25_1322,PartialTrial,9999,59.819755062,
5,2,2,234,6.007,2,7,9,4.007,QXTJMN,2,bfylkh,13.007,right,0,11,11,11,,,,,,,1,2016_Jan_25_1322,PartialTrial,9999,59.819755062,
5,2,2,234,6.967,2,7,9,4.967,FBMDTY,2,jblrgh,13.967,down,0,12,12,12,,,1453746340.91,down,1,1.13562393188,1,2016_Jan_25_1322,PartialTrial,9999,59.819755062,
5,2,2,234,6.967,2,7,9,4.967,FBMDTY,2,jblrgh,13.967,down,0,12,12,12,,,,,,,1,2016_Jan_25_1322,PartialTrial,9999,59.819755062,
5,0,2,345,4.075,0,7,7,4.075,TDMLKB,2, ,11.075,none,0,13,13,13,,,1453746357.37,None,10,,1,2016_Jan_25_1322,PartialTrial,9999,59.819755062,
5,0,2,345,4.075,0,7,7,4.075,TDMLKB,2, ,11.075,none,0,13,13,13,,,,,,,1,2016_Jan_25_1322,PartialTrial,9999,59.819755062,
0,2,2,345,6.7,2,2,4,4.7,JMKRNX,2,fbdgly,8.7,right,0,14,14,14,,,1453746370.94,right,1,1.06801700592,1,2016_Jan_25_1322,PartialTrial,9999,59.819755062,
0,2,2,345,6.7,2,2,4,4.7,JMKRNX,2,fbdgly,8.7,right,0,14,14,14,,,,,,,1,2016_Jan_25_1322,PartialTrial,9999,59.819755062,
5,0,2,2345,4.494,0,7,7,4.494,MDTQWF,2, ,11.494,none,0,15,15,15,,,1453746382.15,None,10,,1,2016_Jan_25_1322,PartialTrial,9999,59.819755062,
5,0,2,2345,4.494,0,7,7,4.494,MDTQWF,2, ,11.494,none,0,15,15,15,,,,,,,1,2016_Jan_25_1322,PartialTrial,9999,59.819755062,
0,0,2,2345,4.279,0,2,2,4.279,KLFWTJ,2, ,6.279,none,0,16,16,16,,,1453746396.14,None,10,,1,2016_Jan_25_1322,PartialTrial,9999,59.819755062,
0,0,2,2345,4.279,0,2,2,4.279,KLFWTJ,2, ,6.279,none,0,16,16,16,,,,,,,1,2016_Jan_25_1322,PartialTrial,9999,59.819755062,
5,4,2,2345,6.748,2,7,9,4.748,WNLMBQ,2,htfnxj,13.748,down,0,17,17,17,,,1453746404.91,down,1,1.18457913399,1,2016_Jan_25_1322,PartialTrial,9999,59.819755062,
5,4,2,2345,6.748,2,7,9,4.748,WNLMBQ,2,htfnxj,13.748,down,0,17,17,17,,,,,,,1,2016_Jan_25_1322,PartialTrial,9999,59.819755062,
5,4,2,2345,6.053,2,7,9,4.053,RXHGFK,2,jwtgnm,13.053,down,0,18,18,18,,,1453746421.15,down,1,1.36853909492,1,2016_Jan_25_1322,PartialTrial,9999,59.819755062,
5,4,2,2345,6.053,2,7,9,4.053,RXHGFK,2,jwtgnm,13.053,down,0,18,18,18,,,,,,,1,2016_Jan_25_1322,PartialTrial,9999,59.819755062,
0,1,2,3456,6.294,2,2,4,4.294,GJLMXF,2,xbykdn,8.294,down,0,19,19,19,,,1453746436.71,down,1,1.21745300293,1,2016_Jan_25_1322,PartialTrial,9999,59.819755062,
0,1,2,3456,6.294,2,2,4,4.294,GJLMXF,2,xbykdn,8.294,down,0,19,19,19,,,,,,,1,2016_Jan_25_1322,PartialTrial,9999,59.819755062,
0,3,2,12345,6.064,2,2,4,4.064,NHXYGK,2,rldbwm,8.064,right,0,20,20,20,,,1453746447.5,right,1,0.933834075928,1,2016_Jan_25_1322,PartialTrial,9999,59.819755062,
0,3,2,12345,6.064,2,2,4,4.064,NHXYGK,2,rldbwm,8.064,right,0,20,20,20,,,,,,,1,2016_Jan_25_1322,PartialTrial,9999,59.819755062,
5,0,2,12345,4.116,0,7,7,4.116,WNYDXF,2, ,11.116,none,0,21,21,21,,,1453746458.05,None,10,,1,2016_Jan_25_1322,PartialTrial,9999,59.819755062,
5,0,2,12345,4.116,0,7,7,4.116,WNYDXF,2, ,11.116,none,0,21,21,21,,,,,,,1,2016_Jan_25_1322,PartialTrial,9999,59.819755062,
5,1,2,12345,6.049,2,7,9,4.049,XGFBNY,2,xdmrkw,13.049,down,0,22,22,22,,,1453746471.66,down,1,0.950917005539,1,2016_Jan_25_1322,PartialTrial,9999,59.819755062,
5,1,2,12345,6.049,2,7,9,4.049,XGFBNY,2,xdmrkw,13.049,down,0,22,22,22,,,,,,,1,2016_Jan_25_1322,PartialTrial,9999,59.819755062,
5,5,2,12345,7.413,2,7,9,5.413,QXTJMN,2,brfwhy,14.413,right,0,23,23,23,,,1453746487.2,right,1,1.01744389534,1,2016_Jan_25_1322,PartialTrial,9999,59.819755062,
5,5,2,12345,7.413,2,7,9,5.413,QXTJMN,2,brfwhy,14.413,right,0,23,23,23,,,,,,,1,2016_Jan_25_1322,PartialTrial,9999,59.819755062,
0,0,2,23456,4.032,0,2,2,4.032,DWQGBL,2, ,6.032,none,0,24,24,24,,,1453746504.11,None,10,,1,2016_Jan_25_1322,PartialTrial,9999,59.819755062,
0,0,2,23456,4.032,0,2,2,4.032,DWQGBL,2, ,6.032,none,0,24,24,24,,,,,,,1,2016_Jan_25_1322,PartialTrial,9999,59.819755062,
5,1,2,123456,6.08,2,7,9,4.08,WLQHYX,2,ljngtk,13.08,down,0,25,25,25,,,1453746512.65,right,0,1.00148892403,1,2016_Jan_25_1322,PartialTrial,9999,59.819755062,
5,1,2,123456,6.08,2,7,9,4.08,WLQHYX,2,ljngtk,13.08,down,0,25,25,25,,,,,,,1,2016_Jan_25_1322,PartialTrial,9999,59.819755062,
0,6,2,123456,6.65,2,2,4,4.65,RDJKWY,2,nbhlgr,8.65,down,0,26,26,26,,,1453746528.22,down,1,1.18317723274,1,2016_Jan_25_1322,PartialTrial,9999,59.819755062,
0,6,2,123456,6.65,2,2,4,4.65,RDJKWY,2,nbhlgr,8.65,down,0,26,26,26,,,,,,,1,2016_Jan_25_1322,PartialTrial,9999,59.819755062,
5,5,2,123456,6.004,2,7,9,4.004,DKWFTM,2,rlxyjn,13.004,right,0,27,27,27,,,1453746539.38,right,1,1.03261899948,1,2016_Jan_25_1322,PartialTrial,9999,59.819755062,
5,5,2,123456,6.004,2,7,9,4.004,DKWFTM,2,rlxyjn,13.004,right,0,27,27,27,,,,,,,1,2016_Jan_25_1322,PartialTrial,9999,59.819755062,
5,0,2,123456,4.428,0,7,7,4.428,RBLJXK,2, ,11.428,none,0,28,28,28,,,1453746554.89,None,10,,1,2016_Jan_25_1322,PartialTrial,9999,59.819755062,
5,0,2,123456,4.428,0,7,7,4.428,RBLJXK,2, ,11.428,none,0,28,28,28,,,,,,,1,2016_Jan_25_1322,PartialTrial,9999,59.819755062,
0,0,2,123456,4.449,0,2,2,4.449,FQJTXR,2, ,6.449,none,0,29,29,29,,,1453746568.81,None,10,,1,2016_Jan_25_1322,PartialTrial,9999,59.819755062,
0,0,2,123456,4.449,0,2,2,4.449,FQJTXR,2, ,6.449,none,0,29,29,29,,,,,,,1,2016_Jan_25_1322,PartialTrial,9999,59.819755062,
,,,,,,,,,,,,,,,,,,,,1453746577.78,,,,1,2016_Jan_25_1322,PartialTrial,9999,59.819755062,
,,,,,,,,,,,,,,,,,,,,1453746587.77,,,,1,2016_Jan_25_1322,PartialTrial,9999,59.819755062,
,,,,,,,,,,,,,,,,,,,,1453746590.77,,,,1,2016_Jan_25_1322,PartialTrial,9999,59.819755062,
