RetDur,BotBrack,StimDur,UpBrack,ProbeDurITI,ProbeDur,ProbeStart,TrialDur,ITI,StimSet,RetStart,ProbeLet,TrialITIDur,Correct,trials.thisRepN,trials.thisTrialN,trials.thisN,trials.thisIndex,ScannerTrigger.keys,ScannerTrigger.rt,TrialStartTime,KeyboardResp.keys,KeyboardResp.corr,KeyboardResp.rt,Participant ID,date,expName,Visit ID,frameRate,
,,,,,,,,,,,,,,0,-1,-1,0,r,1.58383084689,,,,,12345,2016_Apr_13_1041,PartialTrial,1,190.833150539,
,,,,,,,,,,,,,,0,-1,-1,0,,,1460558507.12,,,,12345,2016_Apr_13_1041,PartialTrial,1,190.833150539,
0,1,2,2,6.92,2,2,4,4.92,KTJDRY,2,tbnmqx,8.92,down,0,0,0,0,,,1460558512.14,down,1,1.64529482784,12345,2016_Apr_13_1041,PartialTrial,1,190.833150539,
0,1,2,2,6.92,2,2,4,4.92,KTJDRY,2,tbnmqx,8.92,down,0,0,0,0,,,,,,,12345,2016_Apr_13_1041,PartialTrial,1,190.833150539,
0,0,2,2,4.245,0,2,2,4.245,NDGJXB,2, ,6.245,none,0,1,1,1,,,1460558523.56,None,10,,12345,2016_Apr_13_1041,PartialTrial,1,190.833150539,
0,0,2,2,4.245,0,2,2,4.245,NDGJXB,2, ,6.245,none,0,1,1,1,,,,,,,12345,2016_Apr_13_1041,PartialTrial,1,190.833150539,
5,6,2,3,6.051,2,7,9,4.051,NWQMYF,2,jhbrxg,13.051,right,0,2,2,2,,,1460558532.3,down,0,2.23048941541,12345,2016_Apr_13_1041,PartialTrial,1,190.833150539,
5,6,2,3,6.051,2,7,9,4.051,NWQMYF,2,jhbrxg,13.051,right,0,2,2,2,,,,,,,12345,2016_Apr_13_1041,PartialTrial,1,190.833150539,
5,6,2,3,6.353,2,7,9,4.353,JNDLBY,2,tfmqgd,13.353,down,0,3,3,3,,,1460558547.85,None,-1,,12345,2016_Apr_13_1041,PartialTrial,1,190.833150539,
5,6,2,3,6.353,2,7,9,4.353,JNDLBY,2,tfmqgd,13.353,down,0,3,3,3,,,,,,,12345,2016_Apr_13_1041,PartialTrial,1,190.833150539,
5,0,2,5,4.729,0,7,7,4.729,JXKMYH,2, ,11.729,none,0,4,4,4,,,1460558563.72,None,10,,12345,2016_Apr_13_1041,PartialTrial,1,190.833150539,
5,0,2,5,4.729,0,7,7,4.729,JXKMYH,2, ,11.729,none,0,4,4,4,,,,,,,12345,2016_Apr_13_1041,PartialTrial,1,190.833150539,
5,6,2,12,6.017,2,7,9,4.017,KNTYRB,2,jfgldw,13.017,right,0,5,5,5,,,1460558577.94,None,-1,,12345,2016_Apr_13_1041,PartialTrial,1,190.833150539,
5,6,2,12,6.017,2,7,9,4.017,KNTYRB,2,jfgldw,13.017,right,0,5,5,5,,,,,,,12345,2016_Apr_13_1041,PartialTrial,1,190.833150539,
5,4,2,34,6.486,2,7,9,4.486,HQDTGF,2,lbwnrx,13.486,right,0,6,6,6,,,1460558593.47,None,-1,,12345,2016_Apr_13_1041,PartialTrial,1,190.833150539,
5,4,2,34,6.486,2,7,9,4.486,HQDTGF,2,lbwnrx,13.486,right,0,6,6,6,,,,,,,12345,2016_Apr_13_1041,PartialTrial,1,190.833150539,
5,0,2,34,4.247,0,7,7,4.247,KBTDYW,2, ,11.247,none,0,7,7,7,,,1460558609.44,down,-10,1.34021183548,12345,2016_Apr_13_1041,PartialTrial,1,190.833150539,
5,0,2,34,4.247,0,7,7,4.247,KBTDYW,2, ,11.247,none,0,7,7,7,,,,,,,12345,2016_Apr_13_1041,PartialTrial,1,190.833150539,
0,1,2,45,6.058,2,2,4,4.058,FMKRHT,2,ldynqj,8.058,right,0,8,8,8,,,1460558623.2,right,1,0.894725952576,12345,2016_Apr_13_1041,PartialTrial,1,190.833150539,
0,1,2,45,6.058,2,2,4,4.058,FMKRHT,2,ldynqj,8.058,right,0,8,8,8,,,,,,,12345,2016_Apr_13_1041,PartialTrial,1,190.833150539,
0,0,2,56,4.025,0,2,2,4.025,HTXMJR,2, ,6.025,none,0,9,9,9,,,1460558633.76,None,10,,12345,2016_Apr_13_1041,PartialTrial,1,190.833150539,
0,0,2,56,4.025,0,2,2,4.025,HTXMJR,2, ,6.025,none,0,9,9,9,,,,,,,12345,2016_Apr_13_1041,PartialTrial,1,190.833150539,
0,0,2,123,4.002,0,2,2,4.002,YBDHMX,2, ,6.002,none,0,10,10,10,,,1460558642.29,None,10,,12345,2016_Apr_13_1041,PartialTrial,1,190.833150539,
0,0,2,123,4.002,0,2,2,4.002,YBDHMX,2, ,6.002,none,0,10,10,10,,,,,,,12345,2016_Apr_13_1041,PartialTrial,1,190.833150539,
5,2,2,234,6.007,2,7,9,4.007,QXTJMN,2,bfylkh,13.007,right,0,11,11,11,,,1460558650.8,None,-1,,12345,2016_Apr_13_1041,PartialTrial,1,190.833150539,
5,2,2,234,6.007,2,7,9,4.007,QXTJMN,2,bfylkh,13.007,right,0,11,11,11,,,,,,,12345,2016_Apr_13_1041,PartialTrial,1,190.833150539,
5,2,2,234,6.967,2,7,9,4.967,FBMDTY,2,jblrgh,13.967,down,0,12,12,12,,,1460558666.32,None,-1,,12345,2016_Apr_13_1041,PartialTrial,1,190.833150539,
5,2,2,234,6.967,2,7,9,4.967,FBMDTY,2,jblrgh,13.967,down,0,12,12,12,,,,,,,12345,2016_Apr_13_1041,PartialTrial,1,190.833150539,
5,0,2,345,4.075,0,7,7,4.075,TDMLKB,2, ,11.075,none,0,13,13,13,,,1460558682.79,None,10,,12345,2016_Apr_13_1041,PartialTrial,1,190.833150539,
5,0,2,345,4.075,0,7,7,4.075,TDMLKB,2, ,11.075,none,0,13,13,13,,,,,,,12345,2016_Apr_13_1041,PartialTrial,1,190.833150539,
0,2,2,345,6.7,2,2,4,4.7,JMKRNX,2,fbdgly,8.7,right,0,14,14,14,,,1460558696.36,None,-1,,12345,2016_Apr_13_1041,PartialTrial,1,190.833150539,
0,2,2,345,6.7,2,2,4,4.7,JMKRNX,2,fbdgly,8.7,right,0,14,14,14,,,,,,,12345,2016_Apr_13_1041,PartialTrial,1,190.833150539,
5,0,2,2345,4.494,0,7,7,4.494,MDTQWF,2, ,11.494,none,0,15,15,15,,,1460558707.56,None,10,,12345,2016_Apr_13_1041,PartialTrial,1,190.833150539,
5,0,2,2345,4.494,0,7,7,4.494,MDTQWF,2, ,11.494,none,0,15,15,15,,,,,,,12345,2016_Apr_13_1041,PartialTrial,1,190.833150539,
0,0,2,2345,4.279,0,2,2,4.279,KLFWTJ,2, ,6.279,none,0,16,16,16,,,1460558721.56,None,10,,12345,2016_Apr_13_1041,PartialTrial,1,190.833150539,
0,0,2,2345,4.279,0,2,2,4.279,KLFWTJ,2, ,6.279,none,0,16,16,16,,,,,,,12345,2016_Apr_13_1041,PartialTrial,1,190.833150539,
5,4,2,2345,6.748,2,7,9,4.748,WNLMBQ,2,htfnxj,13.748,down,0,17,17,17,,,1460558730.34,down,1,2.06736846081,12345,2016_Apr_13_1041,PartialTrial,1,190.833150539,
5,4,2,2345,6.748,2,7,9,4.748,WNLMBQ,2,htfnxj,13.748,down,0,17,17,17,,,,,,,12345,2016_Apr_13_1041,PartialTrial,1,190.833150539,
5,4,2,2345,6.053,2,7,9,4.053,RXHGFK,2,jwtgnm,13.053,down,0,18,18,18,,,1460558746.6,None,-1,,12345,2016_Apr_13_1041,PartialTrial,1,190.833150539,
5,4,2,2345,6.053,2,7,9,4.053,RXHGFK,2,jwtgnm,13.053,down,0,18,18,18,,,,,,,12345,2016_Apr_13_1041,PartialTrial,1,190.833150539,
0,1,2,3456,6.294,2,2,4,4.294,GJLMXF,2,xbykdn,8.294,down,0,19,19,19,,,1460558762.16,None,-1,,12345,2016_Apr_13_1041,PartialTrial,1,190.833150539,
0,1,2,3456,6.294,2,2,4,4.294,GJLMXF,2,xbykdn,8.294,down,0,19,19,19,,,,,,,12345,2016_Apr_13_1041,PartialTrial,1,190.833150539,
0,3,2,12345,6.064,2,2,4,4.064,NHXYGK,2,rldbwm,8.064,right,0,20,20,20,,,1460558772.96,down,0,0.950081426238,12345,2016_Apr_13_1041,PartialTrial,1,190.833150539,
0,3,2,12345,6.064,2,2,4,4.064,NHXYGK,2,rldbwm,8.064,right,0,20,20,20,,,,,,,12345,2016_Apr_13_1041,PartialTrial,1,190.833150539,
5,0,2,12345,4.116,0,7,7,4.116,WNYDXF,2, ,11.116,none,0,21,21,21,,,1460558783.52,None,10,,12345,2016_Apr_13_1041,PartialTrial,1,190.833150539,
5,0,2,12345,4.116,0,7,7,4.116,WNYDXF,2, ,11.116,none,0,21,21,21,,,,,,,12345,2016_Apr_13_1041,PartialTrial,1,190.833150539,
5,1,2,12345,6.049,2,7,9,4.049,XGFBNY,2,xdmrkw,13.049,down,0,22,22,22,,,1460558797.14,None,-1,,12345,2016_Apr_13_1041,PartialTrial,1,190.833150539,
5,1,2,12345,6.049,2,7,9,4.049,XGFBNY,2,xdmrkw,13.049,down,0,22,22,22,,,,,,,12345,2016_Apr_13_1041,PartialTrial,1,190.833150539,
5,5,2,12345,7.413,2,7,9,5.413,QXTJMN,2,brfwhy,14.413,right,0,23,23,23,,,1460558812.69,None,-1,,12345,2016_Apr_13_1041,PartialTrial,1,190.833150539,
5,5,2,12345,7.413,2,7,9,5.413,QXTJMN,2,brfwhy,14.413,right,0,23,23,23,,,,,,,12345,2016_Apr_13_1041,PartialTrial,1,190.833150539,
0,0,2,23456,4.032,0,2,2,4.032,DWQGBL,2, ,6.032,none,0,24,24,24,,,1460558829.6,None,10,,12345,2016_Apr_13_1041,PartialTrial,1,190.833150539,
0,0,2,23456,4.032,0,2,2,4.032,DWQGBL,2, ,6.032,none,0,24,24,24,,,,,,,12345,2016_Apr_13_1041,PartialTrial,1,190.833150539,
5,1,2,123456,6.08,2,7,9,4.08,WLQHYX,2,ljngtk,13.08,down,0,25,25,25,,,1460558838.15,None,-1,,12345,2016_Apr_13_1041,PartialTrial,1,190.833150539,
5,1,2,123456,6.08,2,7,9,4.08,WLQHYX,2,ljngtk,13.08,down,0,25,25,25,,,,,,,12345,2016_Apr_13_1041,PartialTrial,1,190.833150539,
0,6,2,123456,6.65,2,2,4,4.65,RDJKWY,2,nbhlgr,8.65,down,0,26,26,26,,,1460558853.72,None,-1,,12345,2016_Apr_13_1041,PartialTrial,1,190.833150539,
0,6,2,123456,6.65,2,2,4,4.65,RDJKWY,2,nbhlgr,8.65,down,0,26,26,26,,,,,,,12345,2016_Apr_13_1041,PartialTrial,1,190.833150539,
5,5,2,123456,6.004,2,7,9,4.004,DKWFTM,2,rlxyjn,13.004,right,0,27,27,27,,,1460558864.88,None,-1,,12345,2016_Apr_13_1041,PartialTrial,1,190.833150539,
5,5,2,123456,6.004,2,7,9,4.004,DKWFTM,2,rlxyjn,13.004,right,0,27,27,27,,,,,,,12345,2016_Apr_13_1041,PartialTrial,1,190.833150539,
5,0,2,123456,4.428,0,7,7,4.428,RBLJXK,2, ,11.428,none,0,28,28,28,,,1460558880.38,None,10,,12345,2016_Apr_13_1041,PartialTrial,1,190.833150539,
5,0,2,123456,4.428,0,7,7,4.428,RBLJXK,2, ,11.428,none,0,28,28,28,,,,,,,12345,2016_Apr_13_1041,PartialTrial,1,190.833150539,
0,0,2,123456,4.449,0,2,2,4.449,FQJTXR,2, ,6.449,none,0,29,29,29,,,1460558894.31,None,10,,12345,2016_Apr_13_1041,PartialTrial,1,190.833150539,
0,0,2,123456,4.449,0,2,2,4.449,FQJTXR,2, ,6.449,none,0,29,29,29,,,,,,,12345,2016_Apr_13_1041,PartialTrial,1,190.833150539,
,,,,,,,,,,,,,,,,,,,,1460558903.27,,,,12345,2016_Apr_13_1041,PartialTrial,1,190.833150539,
,,,,,,,,,,,,,,,,,,,,1460558913.27,,,,12345,2016_Apr_13_1041,PartialTrial,1,190.833150539,
,,,,,,,,,,,,,,,,,,,,1460558916.26,,,,12345,2016_Apr_13_1041,PartialTrial,1,190.833150539,
