RetDur,BotBrack,StimDur,UpBrack,ProbeDurITI,ProbeDur,ProbeStart,TrialDur,ITI,StimSet,RetStart,ProbeLet,TrialITIDur,Correct,trials.thisRepN,trials.thisTrialN,trials.thisN,trials.thisIndex,ScannerTrigger.keys,ScannerTrigger.rt,TrialStartTime,KeyboardResp.keys,KeyboardResp.corr,KeyboardResp.rt,Participant ID,date,expName,Visit ID,frameRate,
,,,,,,,,,,,,,,0,-1,-1,0,r,1.40247263179,,,,,12345,2016_Apr_13_1027,PartialTrial,1,180.27093031,
,,,,,,,,,,,,,,0,-1,-1,0,,,1460557670.38,,,,12345,2016_Apr_13_1027,PartialTrial,1,180.27093031,
5,1,2,123456,6,2,7,9,4,JHLGKW,2,wbqrdf,13,down,0,0,0,0,,,1460557675.38,down,1,1.04543202295,12345,2016_Apr_13_1027,PartialTrial,1,180.27093031,
5,1,2,123456,6,2,7,9,4,JHLGKW,2,wbqrdf,13,down,0,0,0,0,,,,,,,12345,2016_Apr_13_1027,PartialTrial,1,180.27093031,
5,0,2,123456,4,0,7,7,4,BQNJFK,2, ,11,none,0,1,1,1,,,1460557690.88,None,10,,12345,2016_Apr_13_1027,PartialTrial,1,180.27093031,
5,0,2,123456,4,0,7,7,4,BQNJFK,2, ,11,none,0,1,1,1,,,,,,,12345,2016_Apr_13_1027,PartialTrial,1,180.27093031,
5,6,2,123,6,2,7,9,4,KHBJFG,2,nlrqty,13,right,0,2,2,2,,,1460557704.37,right,1,1.21416968432,12345,2016_Apr_13_1027,PartialTrial,1,180.27093031,
5,6,2,123,6,2,7,9,4,KHBJFG,2,nlrqty,13,right,0,2,2,2,,,,,,,12345,2016_Apr_13_1027,PartialTrial,1,180.27093031,
5,4,2,23456,6,2,7,9,4,QXRYTF,2,nhldjk,13,right,0,3,3,3,,,1460557719.88,right,1,0.971235416863,12345,2016_Apr_13_1027,PartialTrial,1,180.27093031,
5,4,2,23456,6,2,7,9,4,QXRYTF,2,nhldjk,13,right,0,3,3,3,,,,,,,12345,2016_Apr_13_1027,PartialTrial,1,180.27093031,
5,0,2,23456,4,0,7,7,4,DLRMWY,2, ,11,none,0,4,4,4,,,1460557735.36,None,10,,12345,2016_Apr_13_1027,PartialTrial,1,180.27093031,
5,0,2,23456,4,0,7,7,4,DLRMWY,2, ,11,none,0,4,4,4,,,,,,,12345,2016_Apr_13_1027,PartialTrial,1,180.27093031,
0,0,2,123456,4,0,2,2,4,QTNXRL,2, ,6,none,0,5,5,5,,,1460557748.87,None,10,,12345,2016_Apr_13_1027,PartialTrial,1,180.27093031,
0,0,2,123456,4,0,2,2,4,QTNXRL,2, ,6,none,0,5,5,5,,,,,,,12345,2016_Apr_13_1027,PartialTrial,1,180.27093031,
0,0,2,1234,4,0,2,2,4,RTKXWF,2, ,6,none,0,6,6,6,,,1460557757.37,None,10,,12345,2016_Apr_13_1027,PartialTrial,1,180.27093031,
0,0,2,1234,4,0,2,2,4,RTKXWF,2, ,6,none,0,6,6,6,,,,,,,12345,2016_Apr_13_1027,PartialTrial,1,180.27093031,
0,0,2,6,4,0,2,2,4,RXHDLM,2, ,6,none,0,7,7,7,,,1460557765.87,None,10,,12345,2016_Apr_13_1027,PartialTrial,1,180.27093031,
0,0,2,6,4,0,2,2,4,RXHDLM,2, ,6,none,0,7,7,7,,,,,,,12345,2016_Apr_13_1027,PartialTrial,1,180.27093031,
5,1,2,56,6,2,7,9,4,GJDTXF,2,frqhwk,13,down,0,8,8,8,,,1460557774.37,None,-1,,12345,2016_Apr_13_1027,PartialTrial,1,180.27093031,
5,1,2,56,6,2,7,9,4,GJDTXF,2,frqhwk,13,down,0,8,8,8,,,,,,,12345,2016_Apr_13_1027,PartialTrial,1,180.27093031,
5,4,2,3456,6,2,7,9,4,QLKTHN,2,bfywdr,13,right,0,9,9,9,,,1460557789.87,None,-1,,12345,2016_Apr_13_1027,PartialTrial,1,180.27093031,
5,4,2,3456,6,2,7,9,4,QLKTHN,2,bfywdr,13,right,0,9,9,9,,,,,,,12345,2016_Apr_13_1027,PartialTrial,1,180.27093031,
0,0,2,23456,4,0,2,2,4,MJHLRT,2, ,6,none,0,10,10,10,,,1460557805.36,None,10,,12345,2016_Apr_13_1027,PartialTrial,1,180.27093031,
0,0,2,23456,4,0,2,2,4,MJHLRT,2, ,6,none,0,10,10,10,,,,,,,12345,2016_Apr_13_1027,PartialTrial,1,180.27093031,
0,0,2,345,4,0,2,2,4,JGHRTL,2, ,6,none,0,11,11,11,,,1460557813.86,None,10,,12345,2016_Apr_13_1027,PartialTrial,1,180.27093031,
0,0,2,345,4,0,2,2,4,JGHRTL,2, ,6,none,0,11,11,11,,,,,,,12345,2016_Apr_13_1027,PartialTrial,1,180.27093031,
5,3,2,123456,6,2,7,9,4,BRNXMQ,2,kydwlh,13,right,0,12,12,12,,,1460557822.36,None,-1,,12345,2016_Apr_13_1027,PartialTrial,1,180.27093031,
5,3,2,123456,6,2,7,9,4,BRNXMQ,2,kydwlh,13,right,0,12,12,12,,,,,,,12345,2016_Apr_13_1027,PartialTrial,1,180.27093031,
0,5,2,56,6,2,2,4,4,FGRKTW,2,qnjywd,8,down,0,13,13,13,,,1460557837.86,None,-1,,12345,2016_Apr_13_1027,PartialTrial,1,180.27093031,
0,5,2,56,6,2,2,4,4,FGRKTW,2,qnjywd,8,down,0,13,13,13,,,,,,,12345,2016_Apr_13_1027,PartialTrial,1,180.27093031,
5,0,2,123,4,0,7,7,4,WNQBGX,2, ,11,none,0,14,14,14,,,1460557848.36,None,10,,12345,2016_Apr_13_1027,PartialTrial,1,180.27093031,
5,0,2,123,4,0,7,7,4,WNQBGX,2, ,11,none,0,14,14,14,,,,,,,12345,2016_Apr_13_1027,PartialTrial,1,180.27093031,
5,2,2,5,6,2,7,9,4,RNDYWX,2,fwjqlk,13,down,0,15,15,15,,,1460557861.87,None,-1,,12345,2016_Apr_13_1027,PartialTrial,1,180.27093031,
5,2,2,5,6,2,7,9,4,RNDYWX,2,fwjqlk,13,down,0,15,15,15,,,,,,,12345,2016_Apr_13_1027,PartialTrial,1,180.27093031,
5,0,2,23,4,0,7,7,4,XFNWTJ,2, ,11,none,0,16,16,16,,,1460557877.36,None,10,,12345,2016_Apr_13_1027,PartialTrial,1,180.27093031,
5,0,2,23,4,0,7,7,4,XFNWTJ,2, ,11,none,0,16,16,16,,,,,,,12345,2016_Apr_13_1027,PartialTrial,1,180.27093031,
5,5,2,12345,6,2,7,9,4,JQWKHY,2,rflmjn,13,down,0,17,17,17,,,1460557890.87,None,-1,,12345,2016_Apr_13_1027,PartialTrial,1,180.27093031,
5,5,2,12345,6,2,7,9,4,JQWKHY,2,rflmjn,13,down,0,17,17,17,,,,,,,12345,2016_Apr_13_1027,PartialTrial,1,180.27093031,
5,0,2,6,4,0,7,7,4,NJBYLH,2, ,11,right,0,18,18,18,,,1460557906.37,None,-1,,12345,2016_Apr_13_1027,PartialTrial,1,180.27093031,
5,0,2,6,4,0,7,7,4,NJBYLH,2, ,11,right,0,18,18,18,,,,,,,12345,2016_Apr_13_1027,PartialTrial,1,180.27093031,
0,3,2,2,6,2,2,4,4,NJBWGH,2,rdjlqm,8,down,0,19,19,19,,,1460557919.86,None,-1,,12345,2016_Apr_13_1027,PartialTrial,1,180.27093031,
0,3,2,2,6,2,2,4,4,NJBWGH,2,rdjlqm,8,down,0,19,19,19,,,,,,,12345,2016_Apr_13_1027,PartialTrial,1,180.27093031,
0,0,2,23,4,0,2,2,4,DYLBMR,2, ,6,none,0,20,20,20,,,1460557930.36,None,10,,12345,2016_Apr_13_1027,PartialTrial,1,180.27093031,
0,0,2,23,4,0,2,2,4,DYLBMR,2, ,6,none,0,20,20,20,,,,,,,12345,2016_Apr_13_1027,PartialTrial,1,180.27093031,
5,0,2,2345,4,0,7,7,4,HGXMRL,2, ,11,none,0,21,21,21,,,1460557938.86,None,10,,12345,2016_Apr_13_1027,PartialTrial,1,180.27093031,
5,0,2,2345,4,0,7,7,4,HGXMRL,2, ,11,none,0,21,21,21,,,,,,,12345,2016_Apr_13_1027,PartialTrial,1,180.27093031,
0,3,2,2345,6,2,2,4,4,MJFGWL,2,hqntyk,8,right,0,22,22,22,,,1460557952.37,None,-1,,12345,2016_Apr_13_1027,PartialTrial,1,180.27093031,
0,3,2,2345,6,2,2,4,4,MJFGWL,2,hqntyk,8,right,0,22,22,22,,,,,,,12345,2016_Apr_13_1027,PartialTrial,1,180.27093031,
5,3,2,1,6,2,7,9,4,QGHNYJ,2,dtrmlx,13,right,0,23,23,23,,,1460557962.86,None,-1,,12345,2016_Apr_13_1027,PartialTrial,1,180.27093031,
5,3,2,1,6,2,7,9,4,QGHNYJ,2,dtrmlx,13,right,0,23,23,23,,,,,,,12345,2016_Apr_13_1027,PartialTrial,1,180.27093031,
0,3,2,23456,6,2,2,4,4,WNMBFK,2,lrmqjh,8,down,0,24,24,24,,,1460557978.35,None,-1,,12345,2016_Apr_13_1027,PartialTrial,1,180.27093031,
0,3,2,23456,6,2,2,4,4,WNMBFK,2,lrmqjh,8,down,0,24,24,24,,,,,,,12345,2016_Apr_13_1027,PartialTrial,1,180.27093031,
5,6,2,234,6,2,7,9,4,GNQJKT,2,dxhbmn,13,down,0,25,25,25,,,1460557988.85,None,-1,,12345,2016_Apr_13_1027,PartialTrial,1,180.27093031,
5,6,2,234,6,2,7,9,4,GNQJKT,2,dxhbmn,13,down,0,25,25,25,,,,,,,12345,2016_Apr_13_1027,PartialTrial,1,180.27093031,
5,5,2,2345,6,2,7,9,4,RBDFMG,2,hkxymq,13,down,0,26,26,26,,,1460558004.35,None,-1,,12345,2016_Apr_13_1027,PartialTrial,1,180.27093031,
5,5,2,2345,6,2,7,9,4,RBDFMG,2,hkxymq,13,down,0,26,26,26,,,,,,,12345,2016_Apr_13_1027,PartialTrial,1,180.27093031,
0,3,2,345,6,2,2,4,4,LFJKND,2,bwmyht,8,right,0,27,27,27,,,1460558019.86,None,-1,,12345,2016_Apr_13_1027,PartialTrial,1,180.27093031,
0,3,2,345,6,2,2,4,4,LFJKND,2,bwmyht,8,right,0,27,27,27,,,,,,,12345,2016_Apr_13_1027,PartialTrial,1,180.27093031,
5,5,2,23,6,2,7,9,4,JHLKTF,2,nrxgbw,13,right,0,28,28,28,,,1460558030.36,None,-1,,12345,2016_Apr_13_1027,PartialTrial,1,180.27093031,
5,5,2,23,6,2,7,9,4,JHLKTF,2,nrxgbw,13,right,0,28,28,28,,,,,,,12345,2016_Apr_13_1027,PartialTrial,1,180.27093031,
0,2,2,123456,6,2,2,4,4,FMHDBG,2,jftnwr,8,down,0,29,29,29,,,1460558045.86,None,-1,,12345,2016_Apr_13_1027,PartialTrial,1,180.27093031,
0,2,2,123456,6,2,2,4,4,FMHDBG,2,jftnwr,8,down,0,29,29,29,,,,,,,12345,2016_Apr_13_1027,PartialTrial,1,180.27093031,
,,,,,,,,,,,,,,,,,,,,1460558056.36,,,,12345,2016_Apr_13_1027,PartialTrial,1,180.27093031,
,,,,,,,,,,,,,,,,,,,,1460558066.36,,,,12345,2016_Apr_13_1027,PartialTrial,1,180.27093031,
,,,,,,,,,,,,,,,,,,,,1460558069.35,,,,12345,2016_Apr_13_1027,PartialTrial,1,180.27093031,
